<?xml version="1.0" encoding="UTF-8"?>

<Bundle xmlns="http://hl7.org/fhir">
  <id value="medComHospitalNotificationEncounterMessage"/>
  <type value="message"/>
  <timestamp value="2015-07-14T11:15:33+10:00"/>
  <entry>
    <fullUrl value="urn:uuid:267b18ce-3d37-4581-9baa-6fada338038b"/>
    <resource>
      <MessageHeader>
        <id value="267b18ce-3d37-4581-9baa-6fada338038b"/>
        <meta>
          <profile value="http://medcom.dk/fhir/medcom-core/StructureDefinition/medcom-messaging-messageHeader"/>
        </meta>
        <text>
          <status value="generated"/><div xmlns="http://www.w3.org/1999/xhtml"><p><b>Generated Narrative</b></p><p><b>id</b>: 267b18ce-3d37-4581-9baa-6fada338038b</p><p><b>meta</b>: </p><p><b>event</b>: <span title="{http://example.org/fhir/message-events patient-link}">patient-link</span></p><blockquote><p><b>destination</b></p><p><b>endpoint</b>: <a href="urn:oid:1.2.208.176.1.1.18521000016003">urn:oid:1.2.208.176.1.1.18521000016003</a></p><p><b>receiver</b>: <a href="#Organization_a3c4cb84-17a3-4a02-8037-82daf6f9b061">See above (Organization/a3c4cb84-17a3-4a02-8037-82daf6f9b061)</a></p></blockquote><blockquote><p><b>destination</b></p><p><b>endpoint</b>: <a href="urn:oid:1.2.208.176.1.1.667581000016009">urn:oid:1.2.208.176.1.1.667581000016009</a></p><p><b>receiver</b>: <a href="#Organization_c6abef7c-5638-44dc-9596-a5c8fca57682">See above (Organization/c6abef7c-5638-44dc-9596-a5c8fca57682)</a></p></blockquote><p><b>sender</b>: <a href="#Organization_6c59a256-e7e8-4c7c-b6d6-fa18b8e21732">See above (Organization/6c59a256-e7e8-4c7c-b6d6-fa18b8e21732)</a></p><h3>Sources</h3><table class="grid"><tr><td>-</td><td><b>Endpoint</b></td></tr><tr><td>*</td><td><a href="urn:oid:1.2.208.176.1.1.698331000016003">urn:oid:1.2.208.176.1.1.698331000016003</a></td></tr></table></div>
        </text>
        <eventCoding>
          <system value="http://example.org/fhir/message-events"/>
          <code value="patient-link"/>
        </eventCoding>
        <destination>
          <extension url="http://medcom.dk/fhir/medcom-core/StructureDefinition/medcom-messaging-destinationUseExtension">
            <valueCoding>
              <system value="urn:medcom:destinationuse"/>
              <code value="primary"/>
            </valueCoding>
          </extension>
          <endpoint value="urn:oid:1.2.208.176.1.1.18521000016003"/>
          <receiver>
            <reference value="urn:uuid:a3c4cb84-17a3-4a02-8037-82daf6f9b061"/>
          </receiver>
        </destination>
        <destination>
          <extension url="http://medcom.dk/fhir/medcom-core/StructureDefinition/medcom-messaging-destinationUseExtension">
            <valueCoding>
              <system value="urn:medcom:destinationuse"/>
              <code value="carbon-copy"/>
            </valueCoding>
          </extension>
          <endpoint value="urn:oid:1.2.208.176.1.1.667581000016009"/>
          <receiver>
            <reference value="urn:uuid:c6abef7c-5638-44dc-9596-a5c8fca57682"/>
          </receiver>
        </destination>
        <sender>
          <reference value="urn:uuid:6c59a256-e7e8-4c7c-b6d6-fa18b8e21732"/>
        </sender>
        <source>
          <endpoint value="urn:oid:1.2.208.176.1.1.698331000016003"/>
        </source>
      </MessageHeader>
    </resource>
  </entry>
  <entry>
    <fullUrl value="urn:uuid:c6abef7c-5638-44dc-9596-a5c8fca57682"/>
    <resource>
      <Organization>
        <id value="c6abef7c-5638-44dc-9596-a5c8fca57682"/>
        <meta>
          <profile value="http://medcom.dk/fhir/medcom-core/StructureDefinition/medcom-messaging-organization"/>
        </meta>
        <text>
          <status value="generated"/><div xmlns="http://www.w3.org/1999/xhtml"><p><b>Generated Narrative</b></p><p><b>id</b>: c6abef7c-5638-44dc-9596-a5c8fca57682</p><p><b>meta</b>: </p><p><b>identifier</b>: id: 323841000016009, id: 5790000121830</p><p><b>name</b>: NOVAX, Test til lægesystem</p></div>
        </text>
        <identifier>
          <system value="urn:oid:1.2.208.176.1.1"/>
          <value value="323841000016009"/>
        </identifier>
        <identifier>
          <system value="urn:oid:1.3.88"/>
          <value value="5790000121830"/>
        </identifier>
        <name value="NOVAX, Test til l&#xE6;gesystem"/>
      </Organization>
    </resource>
  </entry>
  <entry>
    <fullUrl value="urn:uuid:a3c4cb84-17a3-4a02-8037-82daf6f9b061"/>
    <resource>
      <Organization>
        <id value="a3c4cb84-17a3-4a02-8037-82daf6f9b061"/>
        <meta>
          <profile value="http://medcom.dk/fhir/medcom-core/StructureDefinition/medcom-messaging-organization"/>
        </meta>
        <text>
          <status value="generated"/><div xmlns="http://www.w3.org/1999/xhtml"><p><b>Generated Narrative</b></p><p><b>id</b>: a3c4cb84-17a3-4a02-8037-82daf6f9b061</p><p><b>meta</b>: </p><p><b>identifier</b>: id: 323841000016009, id: 5790000121830</p><p><b>name</b>: NOVAX, Test til lægesystem</p></div>
        </text>
        <identifier>
          <system value="urn:oid:1.2.208.176.1.1"/>
          <value value="323841000016009"/>
        </identifier>
        <identifier>
          <system value="urn:oid:1.3.88"/>
          <value value="5790000121830"/>
        </identifier>
        <name value="NOVAX, Test til l&#xE6;gesystem"/>
      </Organization>
    </resource>
  </entry>
  <entry>
    <fullUrl value="urn:uuid:6c59a256-e7e8-4c7c-b6d6-fa18b8e21732"/>
    <resource>
      <Organization>
        <id value="6c59a256-e7e8-4c7c-b6d6-fa18b8e21732"/>
        <meta>
          <profile value="http://medcom.dk/fhir/medcom-core/StructureDefinition/medcom-messaging-organization"/>
        </meta>
        <text>
          <status value="generated"/><div xmlns="http://www.w3.org/1999/xhtml"><p><b>Generated Narrative</b></p><p><b>id</b>: 6c59a256-e7e8-4c7c-b6d6-fa18b8e21732</p><p><b>meta</b>: </p><p><b>identifier</b>: id: 323841000016009, id: 5790000121830</p><p><b>name</b>: NOVAX, Test til lægesystem</p></div>
        </text>
        <identifier>
          <system value="urn:oid:1.2.208.176.1.1"/>
          <value value="323841000016009"/>
        </identifier>
        <identifier>
          <system value="urn:oid:1.3.88"/>
          <value value="5790000121830"/>
        </identifier>
        <name value="NOVAX, Test til l&#xE6;gesystem"/>
      </Organization>
    </resource>
  </entry>
  <entry>
    <fullUrl value="urn:uuid:eb073ae6-9e52-4cf3-9744-6aed82c9180d"/>
    <resource>
      <Encounter>
        <id value="eb073ae6-9e52-4cf3-9744-6aed82c9180d"/>
        <meta>
          <profile value="http://medcom.dk/fhir/medcom-core/StructureDefinition/medcom-hospital-notification-encounter"/>
        </meta>
        <text>
          <status value="generated"/><div xmlns="http://www.w3.org/1999/xhtml"><p><b>Generated Narrative</b></p><p><b>id</b>: eb073ae6-9e52-4cf3-9744-6aed82c9180d</p><p><b>meta</b>: </p><p><b>status</b>: in-progress</p><p><b>class</b>: <span title="{null IMP}">inpatient encounter</span></p><p><b>subject</b>: <a href="#Patient_2456f44e-d9ad-4296-bd12-24ffebd10fb1">See above (Patient/2456f44e-d9ad-4296-bd12-24ffebd10fb1)</a></p><p><b>episodeOfCare</b>: <span></span></p><p><b>period</b>: 2011-05-23 --&gt; 2011-05-27</p><p><b>serviceProvider</b>: <a href="#Organization_6c59a256-e7e8-4c7c-b6d6-fa18b8e21732">See above (Organization/6c59a256-e7e8-4c7c-b6d6-fa18b8e21732)</a></p></div>
        </text>
        <extension url="http://medcom.dk/fhir/medcom-core/StructureDefinition/status-period">
          <valuePeriod>
            <start value="2011-05-23"/>
            <end value="2011-05-27"/>
          </valuePeriod>
        </extension>
        <status value="in-progress"/>
        <class>
          <code value="IMP"/>
          <display value="inpatient encounter"/>
        </class>
        <subject>
          <reference value="urn:uuid:2456f44e-d9ad-4296-bd12-24ffebd10fb1"/>
        </subject>
        <episodeOfCare>
          <identifier>
            <system value="https://www.esundhed.dk/Registre/Landspatientsregisteret"/>
            <value value="6f59a619-a8cf-487b-bd57-0ac3b352ebd5"/>
          </identifier>
        </episodeOfCare>
        <period>
          <start value="2011-05-23"/>
          <end value="2011-05-27"/>
        </period>
        <serviceProvider>
          <reference value="urn:uuid:6c59a256-e7e8-4c7c-b6d6-fa18b8e21732"/>
        </serviceProvider>
      </Encounter>
    </resource>
  </entry>
  <entry>
    <fullUrl value="urn:uuid:2456f44e-d9ad-4296-bd12-24ffebd10fb1"/>
    <resource>
      <Patient>
        <id value="2456f44e-d9ad-4296-bd12-24ffebd10fb1"/>
        <meta>
          <profile value="http://medcom.dk/fhir/medcom-core/StructureDefinition/medcom-core-patient"/>
        </meta>
        <text>
          <status value="generated"/><div xmlns="http://www.w3.org/1999/xhtml"><p><b>Generated Narrative</b></p><p><b>id</b>: 2456f44e-d9ad-4296-bd12-24ffebd10fb1</p><p><b>meta</b>: </p><p><b>identifier</b>: id: 0506504005 (OFFICIAL)</p><p><b>name</b>: Torsteinn Lind (OFFICIAL)</p><p><b>gender</b>: male</p><p><b>birthDate</b>: 1950-06-04</p><p><b>address</b>: Nordre Ringgade 3 Frederiksberg C 8000 DK (HOME)</p><p><b>generalPractitioner</b>: <span>Peter Sønderby</span></p><p><b>managingOrganization</b>: <a href="#Organization_6c59a256-e7e8-4c7c-b6d6-fa18b8e21732">See above (Organization/6c59a256-e7e8-4c7c-b6d6-fa18b8e21732)</a></p></div>
        </text>
        <identifier>
          <use value="official"/>
          <system value="urn:oid:1.2.208.176.1.2"/>
          <value value="0506504005"/>
        </identifier>
        <name>
          <use value="official"/>
          <family value="Lind"/>
          <given value="Torsteinn"/>
        </name>
        <gender value="male"/>
        <birthDate value="1950-06-04"/>
        <address>
          <use value="home"/>
          <type value="postal"/>
          <line value="Nordre Ringgade 3"/>
          <city value="Frederiksberg C"/>
          <postalCode value="8000"/>
          <country value="DK"/>
        </address>
        <generalPractitioner>
          <identifier>
            <system value="urn:oid:1.2.208.176.1.4"/>
            <value value="79641000016006"/>
          </identifier>
          <display value="Peter S&#xF8;nderby"/>
        </generalPractitioner>
        <managingOrganization>
          <reference value="urn:uuid:6c59a256-e7e8-4c7c-b6d6-fa18b8e21732"/>
        </managingOrganization>
      </Patient>
    </resource>
  </entry>
</Bundle>