<Bundle xmlns="http://hl7.org/fhir">
  <id value="354b0493-d6f4-4e0b-9b69-15bb05bbb3c4"/>
  <meta>
    <profile
             value="http://medcomfhir.dk/fhir/core/1.0/StructureDefinition/medcom-hospitalNotification-message"/>
  </meta>
  <type value="message"/>
  <timestamp value="2021-01-13T13:44:14Z"/>
  <entry>
    <fullUrl value="MessageHeader/8efc6d95-6161-4493-99c9-f359488dedb8"/>
    <resource>
      <MessageHeader>
        <id value="8efc6d95-6161-4493-99c9-f359488dedb8"/>
        <meta>
          <profile
                   value="http://medcomfhir.dk/fhir/core/1.0/StructureDefinition/medcom-hospitalNotification-messageHeader"/>
        </meta>
        <text>
          <status value="generated"/>
          <div xmlns="http://www.w3.org/1999/xhtml"><p><b>Generated Narrative</b></p><p><b>event</b>: <span title="{http://medcomfhir.dk/fhir/core/1.0/CodeSystem/medcom-messaging-eventCodes hospital-notification-message}">Hospital Notification Message</span></p><h3>Destinations</h3><table class="grid"><tr><td>-</td><td><b>Extension</b></td><td><b>Endpoint</b></td><td><b>Receiver</b></td></tr><tr><td>*</td><td></td><td><a href="http://medcom.dk/unknown">http://medcom.dk/unknown</a></td><td><a href="#Organization_74cdf292-abf3-4f5f-80ea-60a48013ff6d">See above (Organization/74cdf292-abf3-4f5f-80ea-60a48013ff6d)</a></td></tr></table><p><b>sender</b>: <a href="#Organization_d7056980-a8b2-42aa-8a0e-c1fc85d1f40d">See above (Organization/d7056980-a8b2-42aa-8a0e-c1fc85d1f40d)</a></p><h3>Sources</h3><table class="grid"><tr><td>-</td><td><b>Endpoint</b></td></tr><tr><td>*</td><td><a href="http://medcom.dk/unknown">http://medcom.dk/unknown</a></td></tr></table><p><b>focus</b>: <a href="#Encounter_8405ba2d-467a-4e92-9acc-9dc2a629760fWhenDeceased">See above (Encounter/8405ba2d-467a-4e92-9acc-9dc2a629760fWhenDeceased)</a></p></div>
        </text>
        <eventCoding>
          <system
                  value="http://medcomfhir.dk/fhir/core/1.0/CodeSystem/medcom-messaging-eventCodes"/>
          <code value="hospital-notification-message"/>
        </eventCoding>
        <destination>
          <extension
                     url="http://medcomfhir.dk/fhir/core/1.0/StructureDefinition/medcom-messaging-destinationUseExtension">
            <valueCoding>
              <system
                      value="http://medcomfhir.dk/fhir/core/1.0/CodeSystem/medcom-messaging-destinationUse"/>
              <code value="primary"/>
            </valueCoding>
          </extension>
          <endpoint value="http://medcom.dk/unknown"/>
          <receiver>
            <reference value="Organization/74cdf292-abf3-4f5f-80ea-60a48013ff6d"/>
          </receiver>
        </destination>
        <sender>
          <reference value="Organization/d7056980-a8b2-42aa-8a0e-c1fc85d1f40d"/>
        </sender>
        <source>
          <endpoint value="http://medcom.dk/unknown"/>
        </source>
        <focus>
          <reference
                     value="Encounter/8405ba2d-467a-4e92-9acc-9dc2a629760fWhenDeceased"/>
        </focus>
      </MessageHeader>
    </resource>
  </entry>
  <entry>
    <fullUrl value="Patient/382fb8a3-6725-41e2-a615-2b1cfcfe9931"/>
    <resource>
      <Patient>
        <id value="382fb8a3-6725-41e2-a615-2b1cfcfe9931"/>
        <meta>
          <profile
                   value="http://medcomfhir.dk/fhir/core/1.0/StructureDefinition/medcom-core-patient"/>
        </meta>
        <text>
          <status value="generated"/>
          <div xmlns="http://www.w3.org/1999/xhtml"><p><b>Generated Narrative</b></p><p><b>identifier</b>: id: 0101010141</p><p><b>name</b>: Erik Clausen (OFFICIAL)</p><p><b>telecom</b>: ph: 24533421</p><p><b>deceased</b>: true</p><p><b>address</b>: Forskerparken 10 Odense M 5230 </p><p><b>managingOrganization</b>: <a href="#Organization_bca68510-fe3b-4161-aba0-908a693eb54f">See above (Organization/bca68510-fe3b-4161-aba0-908a693eb54f)</a></p></div>
        </text>
        <identifier>
          <system value="urn:oid:1.2.208.176.1.2"/>
          <value value="0101010141"/>
        </identifier>
        <name>
          <use value="official"/>
          <family value="Clausen"/>
          <given value="Erik"/>
        </name>
        <telecom>
          <system value="phone"/>
          <value value="24533421"/>
        </telecom>
        <deceasedBoolean value="true"/>
        <address>
          <line value="Forskerparken 10"/>
          <city value="Odense M"/>
          <postalCode value="5230"/>
        </address>
        <managingOrganization>
          <reference value="Organization/bca68510-fe3b-4161-aba0-908a693eb54f"/>
        </managingOrganization>
      </Patient>
    </resource>
  </entry>
  <entry>
    <fullUrl value="Organization/bca68510-fe3b-4161-aba0-908a693eb54f"/>
    <resource>
      <Organization>
        <id value="bca68510-fe3b-4161-aba0-908a693eb54f"/>
        <meta>
          <profile
                   value="http://medcomfhir.dk/fhir/core/1.0/StructureDefinition/medcom-core-organization"/>
        </meta>
        <text>
          <status value="generated"/>
          <div xmlns="http://www.w3.org/1999/xhtml"><p><b>Generated Narrative</b></p><p><b>identifier</b>: id: 378631000016009 (OFFICIAL)</p><p><b>name</b>: Test Practitioner clinic</p></div>
        </text>
        <identifier>
          <use value="official"/>
          <system value="urn:oid:1.2.208.176.1.1"/>
          <value value="378631000016009"/>
        </identifier>
        <name value="Test Practitioner clinic"/>
      </Organization>
    </resource>
  </entry>
  <entry>
    <fullUrl value="Encounter/8405ba2d-467a-4e92-9acc-9dc2a629760fWhenDeceased"/>
    <resource>
      <Encounter>
        <id value="8405ba2d-467a-4e92-9acc-9dc2a629760fWhenDeceased"/>
        <meta>
          <profile
                   value="http://medcomfhir.dk/fhir/core/1.0/StructureDefinition/medcom-hospitalNotification-encounter"/>
        </meta>
        <text>
          <status value="generated"/>
          <div xmlns="http://www.w3.org/1999/xhtml"><p><b>Generated Narrative</b></p><p><b>identifier</b>: id: 7b9f8497-3314-4535-8f86-20df7b5f4d55</p><p><b>status</b>: in-progress</p><p><b>class</b>: <span title="{http://terminology.hl7.org/CodeSystem/v3-ActCode IMP}">inpatient encounter</span></p><p><b>subject</b>: <a href="#Patient_382fb8a3-6725-41e2-a615-2b1cfcfe9931">See above (Patient/382fb8a3-6725-41e2-a615-2b1cfcfe9931)</a></p><p><b>episodeOfCare</b>: <span></span></p><p><b>period</b>: Jan 13, 2021, 1:44:14 PM --&gt; (ongoing)</p><p><b>serviceProvider</b>: <a href="#Organization_bca68510-fe3b-4161-aba0-908a693eb54f">See above (Organization/bca68510-fe3b-4161-aba0-908a693eb54f)</a></p></div>
        </text>
        <identifier>
          <value value="7b9f8497-3314-4535-8f86-20df7b5f4d55"/>
        </identifier>
        <status value="in-progress"/>
        <class>
          <system value="http://terminology.hl7.org/CodeSystem/v3-ActCode"/>
          <code value="EMER"/>
        </class>
        <subject>
          <reference value="Patient/382fb8a3-6725-41e2-a615-2b1cfcfe9931"/>
        </subject>
        <episodeOfCare>
          <identifier>
            <system
                    value="https://www.esundhed.dk/Registre/Landspatientsregisteret"/>
            <value value="200040a2-e05d-4af3-91e7-5febfa8ad0b3"/>
          </identifier>
        </episodeOfCare>
        <period>
          <start value="2021-01-13T13:44:14Z"/>
        </period>
        <serviceProvider>
          <reference value="Organization/bca68510-fe3b-4161-aba0-908a693eb54f"/>
        </serviceProvider>
      </Encounter>
    </resource>
  </entry>
  <entry>
    <fullUrl value="Organization/74cdf292-abf3-4f5f-80ea-60a48013ff6d"/>
    <resource>
      <Organization>
        <id value="74cdf292-abf3-4f5f-80ea-60a48013ff6d"/>
        <meta>
          <profile
                   value="http://medcomfhir.dk/fhir/core/1.0/StructureDefinition/medcom-messaging-organization"/>
        </meta>
        <text>
          <status value="generated"/>
          <div xmlns="http://www.w3.org/1999/xhtml"><p><b>Generated Narrative</b></p><p><b>identifier</b>: id: 543210987654321, id: 5790000121526</p><p><b>name</b>: Receiver Organization</p></div>
        </text>
        <identifier>
          <system value="urn:oid:1.2.208.176.1.1"/>
          <value value="543210987654321"/>
        </identifier>
        <identifier>
          <system value="urn:oid:1.3.88"/>
          <value value="5790000121526"/>
        </identifier>
        <name value="Receiver Organization"/>
      </Organization>
    </resource>
  </entry>
  <entry>
    <fullUrl value="Organization/d7056980-a8b2-42aa-8a0e-c1fc85d1f40d"/>
    <resource>
      <Organization>
        <id value="d7056980-a8b2-42aa-8a0e-c1fc85d1f40d"/>
        <meta>
          <profile
                   value="http://medcomfhir.dk/fhir/core/1.0/StructureDefinition/medcom-messaging-organization"/>
        </meta>
        <text>
          <status value="generated"/>
          <div xmlns="http://www.w3.org/1999/xhtml"><p><b>Generated Narrative</b></p><p><b>identifier</b>: id: 123456789012345, id: 5790001382445</p><p><b>name</b>: Sender Organization</p></div>
        </text>
        <identifier>
          <system value="urn:oid:1.2.208.176.1.1"/>
          <value value="123456789012345"/>
        </identifier>
        <identifier>
          <system value="urn:oid:1.3.88"/>
          <value value="5790001382445"/>
        </identifier>
        <name value="Sender Organization"/>
      </Organization>
    </resource>
  </entry>
  <entry>
    <fullUrl value="Provenance/09942adb-197a-4e30-bec8-566e3a113efe"/>
    <resource>
      <Provenance>
        <id value="09942adb-197a-4e30-bec8-566e3a113efe"/>
        <meta>
          <profile
                   value="http://medcomfhir.dk/fhir/core/1.0/StructureDefinition/medcom-messaging-provenance"/>
        </meta>
        <text>
          <status value="generated"/>
          <div xmlns="http://www.w3.org/1999/xhtml"><p><b>Generated Narrative</b></p><p><b>target</b>: <a href="#MessageHeader_8efc6d95-6161-4493-99c9-f359488dedb8">See above (MessageHeader/8efc6d95-6161-4493-99c9-f359488dedb8)</a></p><p><b>occurred</b>: Jan 13, 2021, 1:44:14 PM</p><p><b>recorded</b>: Jan 13, 2021, 1:45:15 PM</p><p><b>activity</b>: <span title="Codes: {http://medcomfhir.dk/fhir/core/1.0/CodeSystem/medcom-messaging-activityCodes revise-admit-emergency}">End hospital Stay - patient discharged to home/primary sector</span></p><h3>Agents</h3><table class="grid"><tr><td>-</td><td><b>Who</b></td></tr><tr><td>*</td><td><a href="#Organization_d7056980-a8b2-42aa-8a0e-c1fc85d1f40d">See above (Organization/d7056980-a8b2-42aa-8a0e-c1fc85d1f40d)</a></td></tr></table></div>
        </text>
        <target>
          <reference value="MessageHeader/8efc6d95-6161-4493-99c9-f359488dedb8"/>
        </target>
        <occurredDateTime value="2021-01-13T13:44:14Z"/>
        <recorded value="2021-01-13T13:45:15Z"/>
        <activity>
          <coding>
            <system
                    value="http://medcomfhir.dk/fhir/core/1.0/CodeSystem/medcom-messaging-activityCodes"/>
            <code value="revise-admit-emergency"/>
          </coding>
        </activity>
        <agent>
          <who>
            <reference value="Organization/d7056980-a8b2-42aa-8a0e-c1fc85d1f40d"/>
          </who>
        </agent>
      </Provenance>
    </resource>
  </entry>
</Bundle>