<Bundle xmlns="http://hl7.org/fhir">
  <id value="2bf22bc7-4ab7-4abc-a0a7-0bb81593dfb5"/>
  <meta>
    <profile
             value="http://medcomfhir.dk/fhir/core/1.0/StructureDefinition/medcom-hospitalNotification-message"/>
  </meta>
  <type value="message"/>
  <timestamp value="2021-01-13T13:44:14Z"/>
  <entry>
    <fullUrl value="MessageHeader/3791f00a-d3a6-48d5-8320-d28aa39082ef"/>
    <resource>
      <MessageHeader>
        <id value="3791f00a-d3a6-48d5-8320-d28aa39082ef"/>
        <meta>
          <profile
                   value="http://medcomfhir.dk/fhir/core/1.0/StructureDefinition/medcom-hospitalNotification-messageHeader"/>
        </meta>
        <text>
          <status value="generated"/>
          <div xmlns="http://www.w3.org/1999/xhtml"><p><b>Generated Narrative</b></p><p><b>event</b>: <span title="{http://medcomfhir.dk/fhir/core/1.0/CodeSystem/medcom-messaging-eventCodes hospital-notification-message}">Hospital Notification Message</span></p><h3>Destinations</h3><table class="grid"><tr><td>-</td><td><b>Extension</b></td><td><b>Endpoint</b></td><td><b>Receiver</b></td></tr><tr><td>*</td><td></td><td><a href="http://medcom.dk/unknown">http://medcom.dk/unknown</a></td><td><a href="#Organization_74cdf292-abf3-4f5f-80ea-60a48013ff6d">See above (Organization/74cdf292-abf3-4f5f-80ea-60a48013ff6d)</a></td></tr></table><p><b>sender</b>: <a href="#Organization_d7056980-a8b2-42aa-8a0e-c1fc85d1f40d">See above (Organization/d7056980-a8b2-42aa-8a0e-c1fc85d1f40d)</a></p><h3>Sources</h3><table class="grid"><tr><td>-</td><td><b>Endpoint</b></td></tr><tr><td>*</td><td><a href="http://medcom.dk/unknown">http://medcom.dk/unknown</a></td></tr></table><p><b>focus</b>: <a href="#Encounter_8405ba2d-467a-4e92-9acc-9dc2a629760fWhenDeceased">See above (Encounter/8405ba2d-467a-4e92-9acc-9dc2a629760fWhenDeceased)</a></p></div>
        </text>
        <eventCoding>
          <system
                  value="http://medcomfhir.dk/fhir/core/1.0/CodeSystem/medcom-messaging-eventCodes"/>
          <code value="hospital-notification-message"/>
        </eventCoding>
        <destination>
          <extension
                     url="http://medcomfhir.dk/fhir/core/1.0/StructureDefinition/medcom-messaging-destinationUseExtension">
            <valueCoding>
              <system
                      value="http://medcomfhir.dk/fhir/core/1.0/CodeSystem/medcom-messaging-destinationUse"/>
              <code value="primary"/>
            </valueCoding>
          </extension>
          <endpoint value="http://medcom.dk/unknown"/>
          <receiver>
            <reference value="Organization/74cdf292-abf3-4f5f-80ea-60a48013ff6d"/>
          </receiver>
        </destination>
        <sender>
          <reference value="Organization/d7056980-a8b2-42aa-8a0e-c1fc85d1f40d"/>
        </sender>
        <source>
          <endpoint value="http://medcom.dk/unknown"/>
        </source>
        <focus>
          <reference
                     value="Encounter/8405ba2d-467a-4e92-9acc-9dc2a629760fWhenDeceased"/>
        </focus>
      </MessageHeader>
    </resource>
  </entry>
  <entry>
    <fullUrl value="Patient/382fb8a3-6725-41e2-a615-2b1cfcfe9931"/>
    <resource>
      <Patient>
        <id value="382fb8a3-6725-41e2-a615-2b1cfcfe9931"/>
        <meta>
          <profile
                   value="http://medcomfhir.dk/fhir/core/1.0/StructureDefinition/medcom-core-patient"/>
        </meta>
        <text>
          <status value="generated"/>
          <div xmlns="http://www.w3.org/1999/xhtml"><p><b>Generated Narrative</b></p><p><b>identifier</b>: id: 0104909989</p><p><b>name</b>: Eric Flame (OFFICIAL)</p><p><b>telecom</b>: ph: 12345678</p><p><b>address</b>: Flammesvinget 1 Aarhus 8000 C </p><p><b>managingOrganization</b>: <a href="#Organization_12ee0dde-a672-462f-820d-5efe832d73c9">See above (Organization/12ee0dde-a672-462f-820d-5efe832d73c9)</a></p></div>
        </text>
        <identifier>
          <system value="urn:oid:1.2.208.176.1.2"/>
          <value value="0104909989"/>
        </identifier>
        <name>
          <use value="official"/>
          <family value="Mosebryggersen"/>
          <given value="Torre Test"/>
        </name>
        <telecom>
          <system value="phone"/>
          <value value="12345678"/>
        </telecom>
        <address>
          <line value="Testgrusgraven 3, 3.tv"/>
          <city value="Hillerød"/>
          <postalCode value="3400"/>
        </address>
        <managingOrganization>
          <reference value="Organization/bca68510-fe3b-4161-aba0-908a693eb54f"/>
        </managingOrganization>
      </Patient>
    </resource>
  </entry>
  <entry>
    <fullUrl value="Organization/bca68510-fe3b-4161-aba0-908a693eb54f"/>
    <resource>
      <Organization>
        <id value="bca68510-fe3b-4161-aba0-908a693eb54f"/>
        <meta>
          <profile
                   value="http://medcomfhir.dk/fhir/core/1.0/StructureDefinition/medcom-core-organization"/>
        </meta>
        <text>
          <status value="generated"/>
          <div xmlns="http://www.w3.org/1999/xhtml"><p><b>Generated Narrative</b></p><p><b>identifier</b>: id: 378631000016009 (OFFICIAL)</p><p><b>name</b>: Test Practitioner clinic</p></div>
        </text>
        <identifier>
          <use value="official"/>
          <system value="urn:oid:1.2.208.176.1.1"/>
          <value value="378631000016009"/>
        </identifier>
        <name value="Test Practitioner clinic"/>
      </Organization>
    </resource>
  </entry>
  <entry>
    <fullUrl value="Encounter/8405ba2d-467a-4e92-9acc-9dc2a629760fWhenDeceased"/>
    <resource>
      <Encounter>
        <id value="8405ba2d-467a-4e92-9acc-9dc2a629760fWhenDeceased"/>
        <meta>
          <profile
                   value="http://medcomfhir.dk/fhir/core/1.0/StructureDefinition/medcom-hospitalNotification-encounter"/>
        </meta>
        <text>
          <status value="generated"/>
          <div xmlns="http://www.w3.org/1999/xhtml"><p><b>Generated Narrative</b></p><p><b>identifier</b>: id: 57675828-9929-42e9-a73c-ac65f0cde8f0</p><p><b>status</b>: in-progress</p><p><b>class</b>: <span title="{http://terminology.hl7.org/CodeSystem/v3-ActCode IMP}">inpatient encounter</span></p><p><b>subject</b>: <a href="#Patient_382fb8a3-6725-41e2-a615-2b1cfcfe9931">See above (Patient/382fb8a3-6725-41e2-a615-2b1cfcfe9931)</a></p><p><b>episodeOfCare</b>: <span></span></p><p><b>period</b>: Jan 13, 2021, 1:44:14 PM --&gt; (ongoing)</p><p><b>serviceProvider</b>: <a href="#Organization_bca68510-fe3b-4161-aba0-908a693eb54f">See above (Organization/bca68510-fe3b-4161-aba0-908a693eb54f)</a></p></div>
        </text>
        <identifier>
          <value value="57675828-9929-42e9-a73c-ac65f0cde8f0"/>
        </identifier>
        <status value="in-progress"/>
        <class>
          <system value="http://terminology.hl7.org/CodeSystem/v3-ActCode"/>
          <code value="IMP"/>
        </class>
        <subject>
          <reference value="Patient/382fb8a3-6725-41e2-a615-2b1cfcfe9931"/>
        </subject>
        <episodeOfCare>
          <identifier>
            <system
                    value="https://www.esundhed.dk/Registre/Landspatientsregisteret"/>
            <value value="87654321-1234-1234-1234-123456789012"/>
          </identifier>
        </episodeOfCare>
        <period>
          <start value="2021-01-13T13:44:14Z"/>
        </period>
        <serviceProvider>
          <reference value="Organization/bca68510-fe3b-4161-aba0-908a693eb54f"/>
        </serviceProvider>
      </Encounter>
    </resource>
  </entry>
  <entry>
    <fullUrl value="Organization/74cdf292-abf3-4f5f-80ea-60a48013ff6d"/>
    <resource>
      <Organization>
        <id value="74cdf292-abf3-4f5f-80ea-60a48013ff6d"/>
        <meta>
          <profile
                   value="http://medcomfhir.dk/fhir/core/1.0/StructureDefinition/medcom-messaging-organization"/>
        </meta>
        <text>
          <status value="generated"/>
          <div xmlns="http://www.w3.org/1999/xhtml"><p><b>Generated Narrative</b></p><p><b>identifier</b>: id: 543210987654321, id: 5790000121526</p><p><b>name</b>: Receiver Organization</p></div>
        </text>
        <identifier>
          <system value="urn:oid:1.2.208.176.1.1"/>
          <value value="543210987654321"/>
        </identifier>
        <identifier>
          <system value="urn:oid:1.3.88"/>
          <value value="5790000121526"/>
        </identifier>
        <name value="Receiver Organization"/>
      </Organization>
    </resource>
  </entry>
  <entry>
    <fullUrl value="Organization/d7056980-a8b2-42aa-8a0e-c1fc85d1f40d"/>
    <resource>
      <Organization>
        <id value="d7056980-a8b2-42aa-8a0e-c1fc85d1f40d"/>
        <meta>
          <profile
                   value="http://medcomfhir.dk/fhir/core/1.0/StructureDefinition/medcom-messaging-organization"/>
        </meta>
        <text>
          <status value="generated"/>
          <div xmlns="http://www.w3.org/1999/xhtml"><p><b>Generated Narrative</b></p><p><b>identifier</b>: id: 123456789012345, id: 5790001382445</p><p><b>name</b>: Sender Organization</p></div>
        </text>
        <identifier>
          <system value="urn:oid:1.2.208.176.1.1"/>
          <value value="123456789012345"/>
        </identifier>
        <identifier>
          <system value="urn:oid:1.3.88"/>
          <value value="5790001382445"/>
        </identifier>
        <name value="Sender Organization"/>
      </Organization>
    </resource>
  </entry>
  <entry>
    <fullUrl value="Provenance/09942adb-197a-4e30-bec8-566e3a113efe"/>
    <resource>
      <Provenance>
        <id value="09942adb-197a-4e30-bec8-566e3a113efe"/>
        <meta>
          <profile
                   value="http://medcomfhir.dk/fhir/core/1.0/StructureDefinition/medcom-messaging-provenance"/>
        </meta>
        <text>
          <status value="generated"/>
          <div xmlns="http://www.w3.org/1999/xhtml"><p><b>Generated Narrative</b></p><p><b>target</b>: <a href="#MessageHeader_3791f00a-d3a6-48d5-8320-d28aa39082ef">See above (MessageHeader/3791f00a-d3a6-48d5-8320-d28aa39082ef)</a></p><p><b>occurred</b>: Jan 13, 2021, 1:44:14 PM</p><p><b>recorded</b>: Jan 13, 2021, 1:45:15 PM</p><p><b>activity</b>: <span title="Codes: {http://medcomfhir.dk/fhir/core/1.0/CodeSystem/medcom-messaging-activityCodes cancel-discharge-inpatient-home}">End hospital Stay - patient discharged to home/primary sector</span></p><h3>Agents</h3><table class="grid"><tr><td>-</td><td><b>Who</b></td></tr><tr><td>*</td><td><a href="#Organization_d7056980-a8b2-42aa-8a0e-c1fc85d1f40d">See above (Organization/d7056980-a8b2-42aa-8a0e-c1fc85d1f40d)</a></td></tr></table></div>
        </text>
        <target>
          <reference value="MessageHeader/3791f00a-d3a6-48d5-8320-d28aa39082ef"/>
        </target>
        <occurredDateTime value="2021-01-13T13:44:14Z"/>
        <recorded value="2021-01-13T13:45:15Z"/>
        <activity>
          <coding>
            <system
                    value="http://medcomfhir.dk/fhir/core/1.0/CodeSystem/medcom-messaging-activityCodes"/>
            <code value="cancel-discharge-inpatient-home"/>
          </coding>
        </activity>
        <agent>
          <who>
            <reference value="Organization/d7056980-a8b2-42aa-8a0e-c1fc85d1f40d"/>
          </who>
        </agent>
      </Provenance>
    </resource>
  </entry>
   <entry>
    <fullUrl value="Provenance/04db4939-7c60-4ac6-aefc-523f809ccba6"/>
    <resource>
      <Provenance>
        <id value="04db4939-7c60-4ac6-aefc-523f809ccba6"/>
        <meta>
          <profile
                   value="http://medcomfhir.dk/fhir/core/1.0/StructureDefinition/medcom-messaging-provenance"/>
        </meta>
        <text>
          <status value="generated"/>
          <div xmlns="http://www.w3.org/1999/xhtml"><p><b>Generated Narrative</b></p><p><b>target</b>: <a href="#MessageHeader_e47254da-f170-46f0-b624-4778a9c92b1f">See above (MessageHeader/e47254da-f170-46f0-b624-4778a9c92b1f)</a></p><p><b>occurred</b>: Oct 25, 2020, 9:12:34 AM</p><p><b>recorded</b>: Oct 25, 2020, 9:12:34 AM</p><p><b>activity</b>: <span title="Codes: {http://medcomfhir.dk/fhir/core/1.0/CodeSystem/medcom-messaging-activityCodes end-leave-inpatient}">End leave</span></p><h3>Agents</h3><table class="grid"><tr><td>-</td><td><b>Who</b></td></tr><tr><td>*</td><td><a href="#Organization_d7056980-a8b2-42aa-8a0e-c1fc85d1f40d">See above (Organization/d7056980-a8b2-42aa-8a0e-c1fc85d1f40d)</a></td></tr></table><h3>Entities</h3><table class="grid"><tr><td>-</td><td><b>Role</b></td><td><b>What</b></td></tr><tr><td>*</td><td>derivation</td><td><a href="MessageHeader-b563a2b2-bf92-4b13-bbd2-0a021a95bded.html">Generated Summary: <span title="{http://medcomfhir.dk/fhir/core/1.0/CodeSystem/medcom-messaging-eventCodes hospital-notification-message}">Hospital Notification Message</span></a></td></tr></table></div>
        </text>
        <target>
          <reference value="MessageHeader/e47254da-f170-46f0-b624-4778a9c92b1f"/>
        </target>
        <occurredDateTime value="2020-10-25T09:12:34Z"/>
        <recorded value="2020-10-25T09:12:34Z"/>
        <activity>
          <coding>
            <system
                    value="http://medcomfhir.dk/fhir/core/1.0/CodeSystem/medcom-messaging-activityCodes"/>
            <code value="discharge-inpatient-home"/>
          </coding>
        </activity>
        <agent>
          <who>
            <reference value="Organization/d7056980-a8b2-42aa-8a0e-c1fc85d1f40d"/>
          </who>
        </agent>
        <entity>
          <role value="derivation"/>
          <what>
            <reference
                       value="MessageHeader/5400e2aa-a7ce-44f6-a590-801caeee76e1"/>
          </what>
        </entity>
      </Provenance>
    </resource>
  </entry>
</Bundle>